accX,accY,accZ
-1524,1256,16968
-1492,1216,16848
-1508,1236,16984
-1560,1280,16780
-1552,1292,16792
-1576,1296,16868
-1528,1340,16968
-1524,1244,16924
-1456,1264,16948
-1484,1260,16984
-1404,1276,16928
-1504,1268,16984
-1524,1260,16920
-1520,1332,16988
-1516,1268,16896
-1568,1244,16948
-1532,1292,16964
-1484,1216,16912
-1436,1276,16848
-1536,1276,16904
-1476,1244,17032
-1508,1308,16952
-1516,1320,16948
-1516,1284,16976
-1524,1248,16912
-1528,1308,17000
-1508,1264,16936
-1508,1268,16904
-1484,1256,16996
-1524,1248,16904
-1536,1308,17036
-1548,1260,17008
-1492,1260,16924
-1428,1256,17052
-1480,1296,16916
-1520,1228,16940
-1540,1288,16852
-1520,1288,16892
-1500,1176,16968
-1584,1268,17008
-1504,1320,16940
-1524,1304,16952
-1572,1244,16988
-1504,1252,17080
-1648,1256,16980
-1588,1212,16904
-1564,1236,16896
-1532,1244,16996
-1528,1292,16976
-1536,1224,17044
-1504,1232,17000
-1532,1304,16916
-1544,1228,16952
-1592,1252,16952
-1472,1312,16852
-1544,1284,16872
-1468,1268,16880
-1496,1264,16912
-1488,1256,16908
-1508,1328,16936
-1536,1264,16952
-1524,1244,16996
-1520,1272,16968
-1516,1192,17064
-1588,1240,17020
-1524,1248,16992
-1512,1244,16932
-1600,1284,16996
-1516,1252,16952
-1440,1236,16980
-1484,1296,17012
-1464,1324,16820
-1512,1296,16960
-1464,1348,17060
-1440,1232,16928
-1524,1252,16932
-1500,1236,17012
-1548,1304,16948
-1560,1260,16988
-1556,1228,16932
-1512,1300,16932
-1508,1264,16896
-1496,1164,17056
-1472,1256,16972
-1552,1296,16964
-1508,1216,16968
-1540,1272,16972
-1528,1228,17000
-1488,1248,16980
-1564,1272,16964
-1496,1280,16896
-1532,1264,17012
-1532,1272,16964
-1536,1228,17008
-1480,1280,16996
-1504,1264,16992
-1492,1252,16984
-1456,1252,16996
-1580,1276,16968
-1496,1256,16876
-1476,1280,16952
-1504,1324,16924
-1528,1264,17040
-1444,1272,16968
-1556,1252,17048
-1528,1304,16944
-1540,1252,16984
-1508,1216,16856
-1484,1292,17008
-1560,1324,16968
-1556,1204,17024
-1580,1188,17016
-1556,1312,16956
-1476,1304,16960
-1520,1264,16924
-1528,1284,16960
-1520,1292,16924
-1556,1256,17040
-1468,1292,17040
-1516,1296,17016
-1472,1284,16920
-1496,1296,16868
-1516,1260,16944
-1516,1300,16964
-1580,1240,16992
-1520,1300,16888
-1480,1292,17028
-1532,1292,16940
-1524,1244,17000
-1572,1288,17000
-1492,1224,16964
-1540,1248,16868
-1624,1316,16976
-1504,1328,16952
-1604,1248,16940
-1536,1216,17008
-1524,1260,17008
-1560,1316,16924
-1548,1288,16844
-1500,1204,17032
-1560,1300,16956
-1480,1240,17008
-1460,1300,16964
-1536,1284,16924
-1504,1268,16928
-1556,1332,17008
-1516,1212,16856
-1480,1244,16928
-1592,1244,17064
-1512,1296,16956
-1604,1244,17000
-1684,1164,17088
-1660,1224,17096
-1620,1272,16908
-1596,1260,16900
-1524,1280,16932
-1524,1220,16984
-1560,1276,16912
-1504,1224,17020
-1500,1296,16952
-1512,1212,16968
-1508,1312,16960
-1552,1244,16928
-1460,1276,16996
-1528,1272,16976
-1560,1240,16892
-1500,1248,16984
-1524,1280,16920
-1468,1268,16900
-1512,1216,16980
-1620,1296,16920
-1536,1236,17004
-1564,1308,16920
-1500,1360,17040
-1572,1276,16916
-1496,1240,16904
-1540,1252,17044
-1556,1284,16908
-1496,1264,16960
-1508,1240,16980
-1508,1264,16960
-1516,1228,17040
-1540,1256,17016
-1496,1320,16944
-1556,1244,16968
-1500,1256,16960
-1540,1324,16880
-1540,1316,16928
-1500,1252,16892
-1476,1264,16928
-1532,1296,16912
-1512,1268,16972
-1532,1216,17060
-1568,1276,16952
-1500,1280,17048
-1604,1284,17048
-1532,1324,16976
-1560,1304,16928
-1536,1256,16996
-1588,1212,16908
-1436,1268,16984
-1592,1260,17004
-1544,1280,16916
-1540,1264,16924
-1492,1236,17028
-1496,1260,16972
-1508,1280,16896
-1536,1272,16996
-1540,1312,16896
-1500,1304,16872
-1504,1228,16972
-1548,1340,16960
-1500,1292,16952
-1536,1204,16972
-1564,1300,16916
-1452,1260,16904
-1552,1232,16928
-1528,1256,16800
-1528,1296,16944
-1500,1304,16928
-1512,1296,16896
-1508,1312,16980
-1520,1264,17024
-1528,1300,16932
-1512,1284,16964
-1512,1232,16920
-1548,1264,16944
-1504,1244,16884
-1560,1244,17016
-1576,1324,16944
-1548,1308,16908
-1576,1272,16936
-1572,1324,16984
-1560,1208,17064
-1604,1264,16884
-1564,1228,16936
-1532,1284,16928
-1508,1260,17012
-1480,1264,17028
-1476,1276,16940
-1476,1276,16876
-1528,1264,16988
-1520,1280,16888
-1564,1272,16876
-1552,1288,16872
-1524,1276,16916
-1536,1300,16948
-1540,1272,16876
-1496,1236,16880
-1548,1268,16868
-1512,1252,16936
-1484,1228,16972
-1536,1264,16980
-1532,1260,16840
-1472,1320,17024
-1520,1264,17024
-1540,1232,17044
-1608,1236,16952
-1504,1292,16996
-1560,1280,17028
-1592,1224,16952
-1488,1264,16972
-1516,1276,16996
-1532,1208,16912
-1508,1288,16948
-1460,1208,16972
-1536,1244,16988
-1508,1316,16984
-1548,1288,17104
-1508,1280,16960
-1484,1268,16904
-1520,1300,16972
-1484,1280,17004
-1520,1256,17004
-1476,1296,16968
-1528,1196,16916
-1464,1308,17088
-1476,1324,17044
-1504,1280,17004
-1424,1264,16944
-1496,1224,16884
-1564,1224,16848
-1536,1288,16892
-1540,1272,17012
-1528,1304,16920
-1476,1272,16860
-1556,1288,16864
-1548,1236,16988
-1464,1272,16964
-1508,1244,16856
-1532,1284,16872
-1536,1284,16940
-1548,1252,16876
-1484,1312,16928
-1508,1264,16996
-1496,1320,17080
-1540,1232,16904
-1532,1216,16908
-1480,1296,16972
-1536,1240,17040
-1556,1276,17024
-1512,1292,16928
-1572,1216,16944
-1536,1324,16992
-1508,1300,16964
-1552,1264,16992
-1560,1256,16840
-1460,1256,16952
-1564,1244,16928
-1488,1272,16936
-1596,1252,16964
-1444,1260,16928
-1464,1304,17020
-1460,1340,16948
-1456,1240,16896
-1468,1300,16884
-1504,1248,17012
-1496,1256,17072
-1564,1260,16908
-1444,1212,16816
-1572,1348,16980
-1584,1280,17016
-1504,1284,16988
-1540,1300,17000
-1528,1308,16956
-1520,1256,16972
-1472,1260,16964
-1480,1228,16952
-1516,1296,16912
-1528,1320,16940
-1476,1264,16912
-1496,1324,16924
-1512,1304,16976
-1428,1288,16964
-1544,1212,16884
-1540,1328,16968
-1468,1296,16856
-1480,1336,16924
-1552,1264,16844
-1464,1252,17056
-1524,1284,16924
-1488,1292,16988
-1532,1252,16916
-1480,1300,17028
-1508,1292,16984
-1544,1288,16992
-1484,1296,16980
-1532,1232,17056
-1528,1224,16908
-1540,1228,16880
-1528,1292,16904
-1488,1264,16852
-1440,1296,16940
-1520,1296,16908
-1516,1320,17056
-1460,1296,17100
-1500,1220,16896
-1540,1240,16924
-1512,1256,16940
-1488,1316,16964
-1484,1244,16876
-1504,1308,16952
-1480,1296,17000
-1504,1212,17004
-1484,1300,16984
-1492,1268,16884
-1496,1236,17024
-1540,1304,16964
-1476,1268,17012
-1476,1248,17076
-1492,1324,16944
-1468,1252,16984
-1568,1288,17004
-1540,1328,16972
-1544,1240,16928
-1528,1252,16956
-1504,1172,16936
-1508,1324,17072
-1448,1252,16944
-1488,1196,16900
-1540,1192,16988
-1580,1308,17016
-1540,1264,16944
-1468,1228,16976
-1512,1280,16912
-1548,1320,16948
-1516,1340,17200
-2004,1192,15080
-748,1184,17892
-1364,872,17204
-1280,1304,17152
-1740,1452,16224
-1408,1576,16592
-1268,988,17340
-1324,868,17596
-1544,1184,17016
-1364,1404,16256
-1288,1840,16500
-1288,740,17032
-1128,208,17476
1636,344,16544
-228,720,16060
-1756,536,17300
-3640,1472,12944
-3704,832,18528
-2428,-124,15500
-1544,1060,17360
-1928,1408,15736
-1232,1728,15368
-1384,1084,16792
-1340,820,16980
-1196,772,16904
-1472,388,17636
-1620,280,18124
-1452,448,17116
-1228,844,16684
-1244,644,17136
-1416,440,17448
-1352,648,17248
-1360,964,16684
-1364,1156,16548
-1432,1088,16848
-1352,784,17128
-1880,816,17100
-1448,840,17424
-1392,800,17196
-1420,1012,16788
-1356,1148,16688
-1380,1036,16864
-1372,864,16936
-1356,848,17056
-1276,912,16980
-1288,844,16948
-1344,708,17228
-1052,492,17360
-1260,780,17060
-1404,888,16956
-1288,848,16968
-1240,788,17124
-1184,700,17096
-1336,892,17088
-1248,1024,16788
-1480,1152,16716
-1348,1096,16856
-1356,1032,17124
-1372,1128,16932
-1412,1116,16832
-1360,1132,16668
-1412,1104,16736
-1328,940,16956
-1440,796,17296
-1352,764,17144
-1364,768,17020
-1328,856,16984
-1276,816,17064
-1348,712,17112
-1452,664,17096
-808,560,17052
-1436,776,16608
-1228,864,16688
-1228,664,16964
-1296,520,17208
-1448,412,17216
-1364,656,17160
-1276,708,16928
-1372,704,16884
-1328,656,17004
-1312,528,17080
-1340,516,17140
-1288,560,17080
-1316,552,17016
-1304,600,17028
-1424,564,17116
-1760,-3060,11792
2672,-4228,14020
1340,1324,20676
-692,-808,16460
264,672,16056
-212,1280,16912
28,440,16644
-100,-316,17068
-64,-72,17312
-148,-384,17220
-268,-864,17244
-272,-1316,17204
-332,-1016,17072
-500,-648,17124
-688,-872,17108
-704,-1084,17096
-784,-1184,17264
-472,-1372,16784
-528,-1644,16944
-516,-1764,17000
-496,-1540,17000
-456,-1484,17060
-416,-1400,17048
-552,-1548,17072
-632,-1484,16984
-460,-1552,17064
-344,-1740,17004
-340,-1628,17036
-296,-1480,16972
-368,-1480,17096
-316,-1532,17084
-316,-1584,17016
-216,-1708,17036
-236,-1792,16988
-316,-1668,16968
-336,-1604,17048
-376,-1592,16924
-480,-1560,16964
-392,-1700,17024
-408,-1664,17024
-292,-1832,16976
-324,-1824,16996
-504,-1724,17108
-348,-1740,17064
-204,-1704,16980
-208,-1664,17052
-172,-1744,17008
-152,-1708,17008
0,-1652,16964
-84,-1620,16992
-88,-1868,16900
-140,-1872,16952
-24,-1792,17016
-116,-1876,16996
-152,-1764,17064
-120,-1720,17088
-136,-1732,16968
-132,-1816,17028
-80,-1756,17104
-116,-1712,16944
-188,-1788,16940
-132,-1728,16972
-128,-1788,16988
-156,-1668,17040
-72,-1860,16936
-144,-1916,17164
-212,-1948,16956
-216,-2032,17028
-224,-1980,16976
-196,-1944,17028
-128,-1916,17008
-8,-1936,16964
-124,-1868,16980
-92,-1792,16964
-156,-1764,16940
-220,-1884,17088
-268,-1872,16936
-232,-1876,17040
-276,-1840,17080
-208,-1956,17004
-324,-1972,16916
-328,-2008,16960
-280,-2104,17052
-220,-2072,17004
-192,-2036,17084
-164,-2060,17000
-104,-2060,17012
-92,-1996,16936
-60,-2104,16960
12,-2016,17056
-196,-1972,17108
-232,-1924,17056
-188,-2072,16988
-196,-2096,17092
-208,-2076,16968
-300,-2044,17064
-272,-1952,17124
-340,-1976,17116
-224,-1944,17008
-284,-1968,16972
-320,-1932,16944
-224,-2008,16836
-148,-1948,17072
-160,-1948,16956
-172,-1844,17044
-88,-1796,17076
-184,-1744,16988
-228,-1656,17008
-188,-1820,16952
-264,-1840,17012
-368,-1772,17064
-348,-1756,17140
-348,-1800,16996
-300,-1760,17024
-252,-1836,17020
-224,-1760,16968
-284,-1800,16964
-268,-1824,17008
-184,-1820,16988
-108,-1776,16980
-188,-1872,17156
-112,-1824,17000
-168,-1804,17024
-236,-1880,16956
-320,-1808,17128
-256,-1892,17108
-236,-1932,17056
-316,-1812,17072
-252,-1744,17092
-316,-1776,17060
-292,-1836,16976
-324,-1824,16996
-224,-1896,16952
-240,-1836,17072
-124,-1708,17068
-176,-1832,17004
-164,-1800,17032
-156,-1748,17056
-120,-1760,17008
-124,-1732,16952
-248,-1696,17020
-196,-1668,17012
-220,-1616,17044
-280,-1824,17032
-232,-1764,16992
-424,-1848,17180
-208,-1720,17048
-304,-1776,17076
-264,-1828,17044
-344,-1844,17080
-332,-1832,16912
-252,-1796,16992
-248,-1628,17108
-260,-1552,16908
-152,-1544,17084
-192,-1516,17024
-268,-1492,17112
-224,-1620,17092
-312,-1684,17064
-292,-1744,16968
-396,-1752,16908
-392,-1816,17080
-336,-1864,17056
-340,-1896,17096
-308,-1832,17192
-336,-1676,16968
-288,-1756,17088
-292,-1596,17076
-400,-1544,17060
-264,-1488,17068
-324,-1476,17168
-300,-1540,17068
-376,-1676,16992
-356,-1688,17096
-404,-1720,16956
-456,-1772,17136
-372,-1744,17060
-340,-1928,17028
-236,-1808,17084
-312,-1788,16980
-244,-1732,17112
-204,-1588,17012
-268,-1524,17036
-196,-1460,17032
-300,-1360,17052
-308,-1560,17092
-380,-1556,17096
-428,-1552,17012
-460,-1648,17124
-428,-1616,17064
-396,-1720,17064
-432,-1772,17028
-372,-1732,16900
-384,-1652,17116
-340,-1596,17032
-308,-1572,17148
-320,-1632,17036
-340,-1416,16924
-364,-1492,17124
-392,-1400,17084
-416,-1480,17092
-436,-1532,17116
-384,-1640,17004
-388,-1660,17128
-452,-1640,17068
-396,-1712,17076
-372,-1640,17088
-312,-1684,16976
-296,-1680,17036
-292,-1640,17040
-328,-1564,17008
-304,-1504,16972
-296,-1400,17020
-404,-1444,17140
-472,-1432,17044
-352,-1428,17124
-428,-1648,16932
-516,-1576,17108
-452,-1784,17052
-576,-1632,17048
-504,-1708,17016
-456,-1560,17072
-484,-1480,17032
-456,-1520,17112
-368,-1412,17056
-336,-1368,17096
-296,-1372,17100
-316,-1356,17052
-440,-1248,17116
-376,-1356,17088
-372,-1472,17004
-456,-1420,17072
-476,-1556,17096
-476,-1592,17132
-484,-1656,17124
-480,-1716,17140
-364,-1748,17168
-348,-1632,17092
-400,-1640,17088
-348,-1536,17020
-284,-1424,16988
-344,-1300,16972
-396,-1396,17048
-416,-1184,17000
-412,-1460,16948
-316,-1772,17048
-560,-1544,17044
-540,-1648,17120
-572,-1632,17092
-568,-1708,17004
-572,-1692,17092
-516,-1576,17028
-348,-1528,16964
-372,-1408,17000
-336,-1192,16952
-412,-1188,17060
-456,-1248,16992
-400,-1316,17160
-420,-1428,17192
-364,-1652,16936
-532,-1648,17104
-488,-1752,17188
-480,-1864,17016
-504,-1768,17076
-456,-1692,17024
-468,-1440,17000
-452,-1552,17096
-376,-1384,17004
-324,-1216,16872
-312,-1208,16860
-284,-1228,17016
-336,-1316,17128
-480,-1448,17112
-424,-1592,17020
-460,-1708,17052
-456,-1804,17016
-496,-1852,16912
-412,-1816,17036
-420,-1772,17144
-428,-1644,17056
-392,-1532,16992
-452,-1500,16996
-392,-1568,17228
-392,-1460,17044
-432,-1520,17024
1432,-4312,16948
-460,-1448,17192
-652,-1072,17056
-228,-1284,17120
-548,-1256,17064
-240,-1676,17108
-128,-1816,17016
-412,-1756,17012
-336,-1556,16952
-492,-1220,17188
-860,-512,17112
-708,-968,17020
-420,-1388,17124
-2968,2296,18944
-468,-1492,16940
-356,-2524,17040
-600,-836,16860
-608,-1736,17064
-752,-1296,17336
-236,-2356,16704
-632,-1896,16756
-276,-1852,17052
-156,-1944,17204
-3928,-3788,15520
-284,-1848,17204
-608,-1440,16900
76,-1568,16256
-2064,-548,18740
-1544,-1416,18328
-544,-1952,17924
-604,-2268,16752
-732,-2084,17008
-724,-1736,17696
-644,-2276,16792
-592,-2776,17908
-1212,-1516,17948
-708,-1648,17404
-520,-1648,17252
-668,-1508,17248
-1012,-1260,17884
-504,-1244,16884
80,-1840,16828
1404,8876,21788
-3548,-4144,15720
-2576,244,16272
-180,-6740,17844
-424,552,15116
-3196,-552,17936
-500,-996,18480
-1524,-588,16416
-1424,-640,15672
-2148,944,16696
-1252,1052,16996
-1304,-268,17296
-1376,-280,17556
-1500,80,16820
-1588,184,16712
-1336,-36,17248
-1532,-44,16920
-1400,68,17032
-940,232,17296
-1272,612,16268
-1384,-408,17792
-1360,-68,17308
-1760,212,16348
-1464,148,16836
-1372,-184,17332
-1324,-120,17196
-1476,120,16752
-1440,76,17024
-1416,-64,17316
-1420,-4,16952
-1536,112,16956
-1428,40,16932
-1356,-40,17080
-1468,20,16900
-1468,60,16912
-1460,40,16964
-1436,80,17096
-1480,52,17104
-1496,88,16936
-1504,32,17080
-1468,20,17000
-1412,48,16904
-1428,56,16932
-1476,16,16956
-1500,92,16992
-1512,44,16876
-1436,28,16988
-1456,16,17016
-1472,72,16980
-1476,96,16916
-1436,56,17028
-1504,32,16984
-1476,92,16924
-1440,24,16972
-1468,148,16888
-1464,48,17060
-1420,32,17076
-1488,52,16984
-1440,80,16844
-1492,64,17060
-1508,48,16952
-1504,88,17048
-1420,104,17008
-1476,68,17068
-1496,112,16932
-1480,112,17096
-1444,96,17040
-1524,60,16988
-1520,68,16988
-1540,52,17000
-1436,44,16992
-1548,20,17008
-1492,44,16868
-1532,76,17048
-1480,-32,17084
-1512,72,17032
-1488,76,17088
-1512,108,17024
-1488,104,17000
-1480,40,16896
-1576,24,17028
-1560,-12,16932
-1556,40,17024
-1496,44,16956
-1520,48,16968
-1580,36,16972
-1496,72,17008
-1576,52,16984
-1500,40,17036
-1516,104,16988
-1500,80,17012
-1496,72,17000
-1476,36,17036
-1544,56,17028
-1516,40,17084
-1588,52,17080
-1504,44,16984
-1532,88,17020
-1536,96,16932
-1536,116,16992
-1496,80,16960
-1528,36,17048
-1536,72,16900
-1488,36,16940
-1568,120,17016
-1496,172,17000
-1584,60,17076
-1516,64,17092
-1576,80,16976
-1476,108,17076
-1528,48,16952
-1584,28,17064
-1516,84,17024
-1564,72,16976
-1496,124,17136
-1600,24,17060
-1524,44,16952
-1472,72,16964
-1472,140,17040
-1540,88,17048
-1480,20,16964
-1548,80,16908
-1512,64,17168
-1532,48,16980
-1512,96,16884
-1544,20,16888
-1512,60,16972
-1540,92,16884
-1592,48,16956
-1560,76,17036
-1532,56,17036
-1592,-8,16980
-1508,80,17016
-1492,8,17004
-1488,64,17076
-1556,88,17036
-1536,56,16944
-1540,60,16968
-1600,104,17064
-1556,72,17072
-1568,48,17004
-1628,36,17076
-1552,52,16980
-1528,120,16916
-1492,16,16984
-1568,72,16920
-1552,120,17020
-1552,88,16880
-1504,96,16960
-1504,44,17100
-1520,80,17040
-1568,96,16948
-1584,116,16992
-1612,72,17016
-1544,88,17012
-1580,28,17020
-1488,88,16960
-1536,64,16972
-1568,60,16868
-1592,76,16936
-1460,96,17064
-1528,84,16964
-1548,40,16920
-1528,100,16964
-1580,100,16936
-1552,116,16864
-1564,40,16944
-1588,60,17016
-1560,104,16908
-1496,96,16932
-1512,24,16980
-1496,100,16932
-1584,80,17044
-1556,68,17024
-1584,60,16980
-1536,64,16928
-1616,68,16964
-1556,20,16948
-1604,124,16976
-1524,56,16916
-1548,88,17032
-1540,76,16960
-1584,84,16980
-1580,60,16840
-1544,40,17016
-1508,68,16916
-1600,68,17012
-1508,64,17020
-1560,112,17000
-1564,40,16960
-1616,64,16952
-1632,68,16996
-1548,112,16956
-1520,40,16984
-1552,40,17000
-1536,24,16976
-1564,68,17036
-1540,60,16916
-1608,76,16924
-1536,-40,17012
-1612,48,17012
-1624,92,16976
-1576,52,16960
-1568,8,16948
-1572,96,16940
-1596,44,17020
-1528,60,16976
-1612,120,16968
-1584,64,16960
-1560,140,16888
-1512,32,16968
-1536,56,16920
-1572,52,17016
-1564,-12,16920
-1596,100,16968
-1584,20,16944
-1520,92,16912
-1572,32,17020
-1596,56,17052
-1556,68,16980
-1564,100,16940
-1552,28,17076
-1560,60,16980
-1512,64,16940
-1552,44,16888
-1556,88,17012
-1564,120,17036
-1612,24,16948
-1644,76,17092
-1588,112,17064
-1600,32,16992
-1552,72,17036
-1656,64,17104
-1520,64,17052
-1604,60,16980
-1656,100,16956
-1552,68,17012
-1636,56,16964
-1592,128,16968
-1576,108,17012
-1564,104,16920
-1588,164,16948
-1576,108,16916
-1596,100,16936
-1576,24,16944
-1588,120,17104
-1600,80,17004
-1568,88,16992
-1600,80,17028
-1536,96,16952
-1624,104,17060
-1556,76,16920
-1588,80,17020
-1592,96,16972
-1636,44,16972
-1612,104,16888
-1556,132,16988
-1572,100,16992
-1608,112,16940
-1568,96,17016
-1596,88,16992
-1568,36,17000
-1596,24,16804
-1632,116,16980
-1572,140,16816
-1660,-20,17040
-1496,0,16956
-1540,32,17016
-1580,84,17028
-1656,148,16920
-1640,84,16940
-1536,64,17020
-1604,60,16856
-1616,76,16960
-1580,80,17048
-1648,92,16916
-1652,36,16976
-1640,80,16952
-1668,44,17012
-1576,40,16932
-1564,120,17008
-1596,76,16976
-1548,112,17064
-1596,80,17032
-1668,136,16992
-1556,96,16984
-1552,120,16920
-1624,104,16940
-1652,84,17048
-1636,28,17044
-1616,108,17020
-1572,64,16948
-1572,44,16940
-1588,96,16976
-1616,40,17012
-1588,72,16896
-1608,104,16888
-1600,68,16892
-1592,40,16952
-1548,104,17060
-1540,112,16976
-1612,124,16940
-1564,136,17016
-1672,68,17008
-1516,68,16956
-1608,116,16960
-1568,36,17032
-1536,100,17108
-1588,76,16932
-1568,28,16908
-1592,44,17048
-1624,76,16964
-1552,88,17088
-1596,72,16944
-1536,52,17012
-1620,20,17020
-1620,116,16960
-1608,100,17028
-1628,124,16992
-1636,60,16936
-1556,96,17000
-1592,68,17080
-1600,108,17036
-1612,120,16908
-1556,68,17032
-1544,100,16940
-1604,4,16912
-1624,120,16924
-1600,56,16916
-1596,72,17036
-1604,64,16944
-1612,96,16920
-1656,20,17116
-1568,48,17024
-1600,48,16964
-1588,56,16888
-1624,164,16924
-1588,72,17012
-1584,52,16924
-1480,116,16972
-1580,56,16952
-1576,72,17004
-1616,84,16952
-1620,60,16952
-1596,84,17044
-1656,104,16972
-1588,104,17080
-1564,76,17016
-1620,112,16924
-1624,28,17024
-1608,56,16956
-1504,64,17056
-1584,96,16988
-1524,32,17016
-1612,128,16924
-1572,176,16888
-1628,36,17012
-1632,80,16900
-1612,28,16976
-1552,80,16972
-1564,72,17000
-1600,64,16892
-1544,60,16988
-1576,60,17028
-1552,120,17072
-1608,96,16880
-1608,88,16904
-1612,120,17016
-1576,44,17088
-1636,84,16928
-1628,72,17068
-1612,80,16844
-1568,116,16964
-1604,52,16984
-1580,100,16864
-1600,92,17172
-1632,64,16952
-1624,100,17052
-1640,12,16964
-1572,80,16952
-1572,24,16972
-1592,116,16948
-1652,64,16932
-1632,84,16956
-1584,52,16920
-1564,116,16976
-1600,84,16868
-1600,160,16864
-1580,140,16956
-1648,100,17008
-1576,48,16968
-1596,56,16920
-1648,72,16920
-1568,108,16884
-1536,276,16872
-1640,92,16872
-1652,-28,17076
-1628,8,16944
-1584,60,17080
-1636,116,16964
-1656,76,17016
-1596,220,17016
-1660,88,17044
-1604,100,17068
-1576,96,16984
-1608,124,17020
-1632,40,16980
-1624,44,16940
-1648,72,16912
-1612,96,17124
-1556,96,17052
-1588,76,16952
-1628,56,17072
-1592,44,16908
-1608,84,16972
-1608,76,16976
-1600,-8,17060
-1640,84,16968
-1588,116,17020
-1620,144,17028
-1608,40,17084
-1608,132,17048
-1620,132,16912
-1564,60,17004
-1592,52,16948
-1604,56,17044
-1616,116,17036
-1560,100,16924
-1628,52,16992
-1640,60,16924
-1596,44,16988
-1572,120,16972
-1588,56,17040
-1592,56,17160
-1580,80,16948
-1640,60,16952
-1548,92,16904
-1676,144,17008
-1588,92,17004
-1600,108,17044
-1596,60,16980
-1568,80,16992
-1548,88,16952
-1608,40,16996
-1620,76,17000
-1628,108,16804
-1584,88,17004
-1556,84,17020
-1568,100,16980
-1552,160,17012
-1604,120,17036
-1548,132,17096
-1604,36,16904
-1608,76,16944
-1540,80,17020
-1592,92,16988
-1628,20,17052
-1592,136,16940
-1580,180,17008
-15564,-8600,28804
-10812,1052,10212
-4540,-4312,3268
9004,112,15904
13156,4436,13640
-5788,4172,17624
2308,604,17672
3072,-5472,16720
-3784,5884,15768
-2184,9156,15704
1120,6316,18204
6736,-4900,17124
-3076,264,14700
-2788,-2044,15448
-4416,-3220,19160
-4372,-3660,17748
-2792,-1512,16464
-2560,-88,15716
-1436,1268,16768
-448,1644,17200
-2020,-100,17396
-1400,332,17192
-1576,472,16776
-1576,440,16836
-1564,364,16896
-1556,272,17072
-1596,440,17004
-1584,344,16948
-1524,420,16996
-708,-256,14292
768,-3508,16156
-2428,1712,18016
-1868,560,16496
-1828,48,16668
-1676,652,16416
-2156,-28,15544
-1644,420,17172
-3628,-1048,15944
-1440,-868,13052
104,648,17564
584,596,16364
-500,352,17780
-1444,-840,17208
-928,-936,17572
92,-2100,16044
3280,824,14336
-1940,1504,16456
-2964,1936,16896
-2628,472,16676
-1464,108,16936
-1288,-476,17256
-1528,-664,17272
-1260,-188,17040
-1360,-216,17040
-1204,-12,17048
176,-16,16900
468,-36,17088
-560,-316,17296
-548,-32,16564
-896,-24,16828
-1872,-392,16996
-2524,-188,16756
-1696,-764,16860
-748,-412,16456
-2216,-972,16508
-2384,128,16732
-2788,-1544,17848
-816,-1640,16820
-1432,-1624,16936
-1928,-892,17256
-1680,-624,16916
-1604,-904,16852
-1672,-1552,17096
-1744,-1580,17028
-1764,-1932,17008
-1776,-1324,17096
-1800,-1196,16924
-1708,-992,17036
-1644,-892,17220
-1616,-1072,17092
-1648,-828,16972
-1668,-904,17044
-1652,-948,16964
-1520,-540,17060
-1408,-868,17064
-1640,-884,17232
-1756,-960,17052
-1704,-820,16996
-1784,-752,17220
-1612,-732,17228
-1524,-804,17172
-1456,-560,17136
-1352,-860,17112
-1456,-776,17164
-1436,-984,16972
-1644,-1164,17652
-1284,-1140,17096
-1200,-1000,16980
-1192,-900,17196
-1088,-1308,16972
-1160,-1244,17096
-1196,-1172,17060
-1160,-1520,17080
-1260,-1536,17088
-1292,-1292,16992
-1256,-1400,16992
-1456,-1200,17080
-1644,-996,17168
-1612,-800,16996
-1596,-1184,17052
-1588,-1112,17152
-1732,-1172,17244
-1856,-1076,17108
-1840,-1108,16996
-1796,-1128,17008
-1872,-1124,17048
-1772,-940,16984
-1972,-908,16984
-1680,-940,16944
-1628,-1100,17116
-1612,-1208,17420
-1244,-864,17524
-1600,-1300,17228
-1348,-1392,17180
-1408,-1340,17124
-1240,-1288,17168
-1240,-1440,17144
-1244,-1476,17140
-1100,-1364,17216
-1184,-1288,17184
-1260,-1304,17136
-1312,-1448,16968
-980,-1576,16984
-828,-1660,17212
-592,-1788,17000
-724,-1524,17180
-872,-1520,17004
-944,-1468,17004
-904,-1468,16912
-760,-1548,17168
-616,-1684,17016
-804,-1648,17308
-1104,-1656,17236
-1156,-2056,17020
-1280,-2080,17080
-1200,-2084,16900
-1104,-1908,17200
-1136,-2048,17108
-884,-1920,17184
-904,-2356,17224
-992,-2272,17184
-1168,-2288,17156
-1188,-2340,17012
-1164,-2080,17048
-1156,-2072,17140
-1024,-2056,17192
-1052,-2016,17140
-968,-2060,17128
-928,-1944,17076
-1004,-1896,17264
-944,-1852,17208
-760,-1948,16932
-904,-1952,17280
-1020,-1916,17064
-1048,-1880,17188
-1076,-1924,17164
-1108,-1904,17236
-1216,-1812,17112
-1216,-1772,17156
-1036,-1876,17208
-876,-1792,17292
-764,-1540,17256
-684,-1516,17136
-652,-1532,16936
-684,-1888,17076
-504,-2084,16976
-632,-1932,16840
-1180,-1912,16656
-684,-1712,16420
-940,-1644,17144
-880,-1720,17184
-1016,-2184,17400
-1360,-1500,17068
-1384,-1540,17048
-1136,-1876,16860
-1220,-1704,17016
-1164,-1700,17060
-1144,-1600,16912
-1156,-1700,16888
-1084,-1584,16952
-1324,-1556,17092
-924,-1608,16836
-1244,-2084,16804
1260,2364,19852
-748,-1472,17104
-1432,-1236,17256
-1048,-1216,17216
-1044,-1180,17052
-948,-1388,17100
-1028,-1244,17020
-1140,-1380,16936
-1140,-1520,17076
-1120,-1312,16972
-1056,-1396,17008
-1084,-1348,16876
-1124,-1252,17072
-1104,-1160,17096
-1132,-1076,17044
-1224,-1220,17164
-1128,-1116,17184
-1244,-1340,16844
-1492,-1232,17160
608,-3336,18256
-1488,-1320,17164
-1224,-480,17136
-1372,-1412,16736
-1200,-1336,17232
-676,-1228,17892
-1660,-656,16988
-1452,-1508,16396
-1660,-1432,16984
-1588,-1264,17116
-1604,-1072,17116
-2612,-648,17652
-2188,-392,17484
-1252,-1368,16996
-1588,-696,17204
-1176,-1220,16576
-1328,-264,16876
-1416,-648,17256
-1256,-284,16868
-1580,-1144,16968
-2156,-1228,17136
-1188,-536,17156
-1712,-596,17292
-1492,-808,17004
-1396,-964,17088
-1376,-404,17076
-1436,-132,17112
-1508,-348,17032
-1476,-348,17008
-1540,-504,17152
-1452,-812,17044
-1000,-576,16776
-1356,-860,17184
-416,-588,18028
-960,724,16516
-1472,372,16748
-2040,496,16020
-1844,416,16320
-1460,-76,17488
-1568,80,17156
-1708,372,16656
-1704,184,16900
-1576,80,17216
-1640,188,16840
-1612,268,16788
-1516,120,17132
-1600,152,17096
-1612,280,16884
-1644,244,16916
-1616,120,16984
-1604,208,16984
-1640,168,16900
-1680,180,16988
-1556,172,16936
-1628,256,16900
-1608,180,17024
-1612,196,16888
-1580,184,16908
-1592,232,16908
-1572,172,16996
-1712,252,16952
-1628,276,16976
-1620,188,16932
-1556,208,16932
-1624,320,16996
-1668,224,16872
-1616,300,16912
-1672,192,16960
-1688,252,17032
-1628,192,16976
-1672,240,16912
-1620,244,17056
-1592,276,16936
-1592,232,17040
-1664,208,16928
-1616,176,16988
-1560,296,17132
-1632,264,17028
-1600,240,17032
-1668,256,17064
-1564,208,16848
-1588,284,17004
-1588,256,17040
-1556,256,16972
-1624,228,16980
-1628,272,16952
-1600,236,17088
-1716,284,17072
-1584,248,16960
-1616,208,16888
-1592,268,16980
-1656,248,17004
-1664,252,16996
-1644,304,16928
-1584,232,17040
-1620,244,16912
-1640,268,17032
-1700,216,16952
-1620,272,16944
-1560,208,17056
-1656,216,16936
-1696,332,16828
-1620,248,16940
-1628,284,16948
-1672,308,16900
-1608,280,16964
-1620,236,16992
-1664,312,16924
-1664,264,17084
-1604,252,16820
-1644,220,16944
-1628,272,16892
-1568,260,16904
-1696,260,16952
-1648,244,16972
-1604,292,17000
-1604,320,16976
-1668,308,16996
-1652,292,16948
-1592,260,17132
-1600,324,16940
-1584,248,16992
-1664,320,16892
-1584,216,16956
-1568,284,16904
-1604,284,16996
-1584,336,16976
-1644,264,16944
-1628,268,17092
-1620,304,17040
-1620,252,16976
-1700,280,16936
-1624,256,16888
-1572,280,17048
-1572,316,16940
-1556,272,16976
-1680,268,16964
-1580,316,16984
-1604,288,17040
-1688,352,16992
-1624,272,16912
-1600,284,16952
-1580,320,16960
-1636,228,16912
-1596,216,16968
-1656,252,16952
-1648,336,16988
-1640,300,16896
-1624,292,16976
-1688,300,17020
-1632,316,17036
-1700,336,16968
-1656,308,16956
-1576,328,17016
-1584,300,17008
-1596,312,17012
-1648,292,17040
-1664,304,16996
-1612,328,16820
-1620,308,17012
-1652,336,16944
-1656,332,16960
-1648,324,16964
-1632,304,16996
-1628,320,16924
-1544,284,16992
-1632,284,17008
-1632,216,17100
-1672,312,16916
-1656,304,16996
-1616,300,16976
-1608,292,17124
-1592,308,16940
-1660,292,16796
-1600,348,17012
-1588,348,16888
-1656,328,16904
-1656,276,16884
-1612,232,16956
-1600,252,17008
-1616,368,16948
-1632,284,16908
-1688,300,16956
-1668,288,17052
-1664,232,16932
-1604,280,16964
-1660,308,16920
-1676,300,16964
-1640,268,16908
-1676,364,16944
-1604,304,17008
-1664,264,16972
-1720,360,16848
-1644,320,16956
-1612,300,17004
-1680,348,16972
-1612,260,17000
-1620,340,16960
-1616,248,17096
-1556,380,17072
-1584,288,16956
-1676,316,16984
-1660,324,17008
-1680,380,17004
-1668,272,16956
-1632,348,16904
-1604,300,16964
-1564,368,16864
-1620,344,16976
-1632,284,16860
-1560,312,16968
-1612,340,16968
-1644,296,16896
-1584,344,16972
-1624,332,17016
-1612,312,16980
-1680,268,17000
-1604,312,16880
-1612,340,16960
-1596,344,16920
-1700,248,16936
-1632,288,16968
-1604,300,17068
-1700,296,17000
-1652,272,16956
-1624,316,16976
-1596,300,17040
-1604,316,16884
-1632,272,17152
-1592,372,17056
-1596,312,17060
-1632,300,16944
-1564,308,17020
-1604,312,16940
-1636,348,16980
-1628,332,17004
-1608,328,16924
-1652,312,16988
-1616,280,16988
-1560,348,16968
-1604,280,16952
-1620,280,16976
-1652,356,17048
-1688,336,16988
-1592,320,16948
-1596,336,16964
-1596,308,16900
-1596,296,17044
-1620,360,17044
-1664,288,16964
-1640,300,17040
-1644,376,16916
-1624,340,16928
-1588,312,16936
-1604,328,16992
-1660,328,16992
-1632,324,17036
-1664,336,16964
-1648,276,17076
-1696,312,16996
-1580,340,16968
-1664,284,17032
-1648,352,16932
-1648,304,16988
-1596,384,17000
-1640,376,17016
-1620,392,17024
-1580,340,16948
-1560,260,16988
-1644,304,16916
-1548,340,17000
-1608,316,16868
-1624,324,16960
-1656,360,16960
-1660,408,16988
-1680,400,16892
-1708,372,17112
-1572,352,16920
-1660,376,17016
-1596,368,16972
-1660,320,16924
-1592,268,16968
-1604,344,16912
-1632,308,16984
-3960,-2312,18768
-3368,-2644,16080
-1340,-364,16888
1072,-312,13468
-220,-220,16468
-1476,1744,16224
-1268,4452,18320
-1592,1136,16948
-1344,132,17320
-716,668,14696
-888,92,17176
-984,272,16972
-664,548,17244
-560,228,17012
-216,284,17028
-96,-352,16616
132,-84,16644
416,-56,16812
496,56,16756
424,-600,17108
588,-244,16916
184,-560,17500
232,-1096,17436
244,-1112,17112
208,-1004,17068
-92,-872,17004
-232,-992,17220
-404,-1092,17224
-352,-972,17056
-476,-1044,17080
-452,-1084,17016
-456,-1208,17224
-504,-1052,17064
-472,-1148,17192
-440,-1024,17104
-492,-956,17088
-648,-996,17028
-644,-1028,17176
-708,-976,17048
-632,-1160,16944
-648,-1232,16896
-604,-1092,17104
-600,-1036,17040
-604,-1036,17124
-652,-868,17164
-788,-812,17060
-732,-892,16948
-724,-1136,17040
-596,-1104,17024
-588,-1232,17116
-512,-1060,16988
-516,-1072,17124
-388,-1040,17028
-396,-1188,16980
-392,-1152,17048
-428,-1088,17064
-256,-1228,16956
-364,-1324,17112
-336,-1340,16988
-392,-1292,16988
-320,-1224,17028
-424,-1296,16984
-504,-1316,16980
-536,-1308,17012
-456,-1164,17068
-512,-1164,17116
-496,-1108,16940
-508,-924,17004
-492,-880,17088
-596,-924,17052
-632,-912,17152
-632,-1164,17024
-580,-1040,17012
-636,-1120,17068
-628,-1116,17004
-600,-1148,17060
-612,-1176,17072
-456,-1176,17056
-508,-1152,17136
-444,-1132,17016
-408,-1048,17028
-372,-992,16976
-480,-904,17068
-448,-796,17076
-400,-860,17112
-432,-1056,17100
-420,-916,17048
-428,-1116,17088
-512,-1152,17024
-532,-1280,17052
-496,-1296,17036
-440,-1280,17152
-472,-1208,17044
-432,-1272,17048
-500,-1144,17060
-496,-1216,16952
-456,-1148,16964
-504,-1124,17208
-532,-1060,16984
-596,-1000,17020
-532,-1080,17024
-532,-1136,16992
-416,-1324,16952
-436,-1456,17000
-396,-1468,17020
-360,-1436,16984
-356,-1404,17008
-376,-1492,16960
-440,-1380,16960
-484,-1288,17032
-380,-1256,17056
-480,-1216,17088
-400,-932,16956
-436,-996,17052
-304,-1060,17048
-272,-1164,17040
-324,-1236,17032
-356,-1136,17136
-396,-1276,16912
-336,-1268,16984
-500,-1292,17040
-548,-1280,17036
-528,-1208,17024
-688,-1192,17144
-688,-1044,17100
-612,-1104,17068
-588,-996,17024
-528,-984,17032
-560,-948,17128
-496,-1004,17084
-432,-1088,17064
-428,-1084,17036
-476,-1180,17080
-496,-1320,16972
-504,-1264,16996
-632,-1228,17020
-556,-1212,16964
-508,-1212,17032
-492,-1132,16884
-536,-1080,17132
-488,-1152,17056
-464,-1092,17152
-360,-916,16992
-260,-1008,16992
-220,-1132,17080
-200,-1052,17040
-168,-1232,17068
-152,-1360,16936
-172,-1312,17008
-116,-1320,17124
-140,-1360,17064
-128,-1296,17036
-116,-1372,17104
-208,-1256,17020
-252,-1140,16964
-268,-1176,17148
-324,-1064,17060
-396,-1060,17000
-440,-976,17100
-352,-1184,17020
-480,-1084,16944
-400,-1208,17132
-708,-920,17128
-604,-1088,17104
-624,-1048,17004
-692,-1132,17060
-596,-1080,17008
-556,-1144,17024
-576,-1240,17016
-444,-1064,16984
-296,-1056,17056
-220,-964,17164
-76,-816,17020
20,-984,17052
-92,-1092,17056
-56,-1036,17088
-100,-1056,17056
-168,-1052,16956
-212,-1144,17000
-268,-1212,17020
-324,-1204,17096
-408,-1144,17092
-388,-1148,17036
-484,-1136,16984
-524,-1104,17044
-460,-1240,16980
-748,-884,16856
-732,-860,17128
-788,-692,16936
-684,-844,17060
-556,-904,17156
-556,-1008,16988
-532,-1056,16980
-548,-1280,17040
-496,-1320,17024
-500,-1240,16980
-472,-1272,16948
-484,-1216,17048
-544,-1280,17036
-416,-1124,17084
-412,-1180,16964
-364,-1184,17068
-300,-1028,16984
-300,-960,16988
-204,-980,17024
-184,-992,17072
-320,-1240,17080
-332,-1204,17032
-308,-1368,16976
-336,-1368,17036
-352,-1360,16988
-340,-1344,17056
-368,-1272,16960
-420,-1312,17052
-424,-1336,17132
-420,-1292,16964
-464,-1292,16984
-424,-1244,17024
-448,-1032,17028
-420,-980,17152
-400,-1104,17168
-392,-1200,17008
-268,-1200,17052
-340,-1244,16980
-380,-1372,17132
-296,-1356,17024
-248,-1400,17028
-260,-1344,17004
-188,-1336,16916
-276,-1308,17156
-264,-1160,17124
-200,-1096,16996
-160,-944,17036
-68,-868,17100
-12,-968,17092
-112,-1060,17144
-108,-1236,17028
-92,-1196,16944
-212,-1256,17064
-272,-1256,17012
-312,-1256,16996
-380,-1264,17124
-396,-1312,17088
-452,-1324,17080
-576,-1296,17096
-520,-1312,17052
-532,-1248,16972
-536,-1228,17060
-392,-1208,17116
-488,-868,17076
-324,-1004,17104
-280,-1144,17200
-240,-1180,17108
-152,-1244,17032
-168,-1356,17064
44,-1352,17016
60,-1296,17072
116,-1308,16956
24,-1264,17036
-40,-1168,17084
-16,-1112,16984
-20,-1164,16960
-16,-940,17008
-48,-920,17012
-20,-1072,17144
-100,-1108,17092
-12,-1088,17048
-12,-1128,17076
-116,-1332,17088
-180,-1324,16984
-240,-1344,17000
-348,-1312,16992
-412,-1424,16960
-392,-1372,17092
-352,-1420,16944
-468,-1412,17028
-372,-1296,17056
-312,-1240,17092
-344,-1176,17004
-316,-1072,17196
-236,-1024,17088
-236,-1068,17028
-156,-1068,17072
-48,-1124,17060
24,-1020,17168
72,-1144,17008
116,-1160,17024
20,-1316,17088
128,-1344,17048
-4,-1328,17060
32,-1480,16988
-148,-1304,17064
-152,-1232,17016
-232,-1164,16968
-288,-940,17140
-324,-940,16980
532,-2636,17312
-868,732,17184
-428,312,17076
-36,-840,16940
64,-956,17108
88,-916,17060
92,-1304,16996
260,-1296,16992
340,-1888,16732
-212,-1160,17000
-164,-1140,17016
-260,-1380,17032
-164,-1252,17124
-312,-1160,17028
-308,-1280,16880
-420,-1364,17140
-736,-880,17008
-684,-536,17044
-608,-564,17120
-500,-612,17136
-324,-728,17044
-220,-908,17116
-84,-1028,17036
-152,-1044,17076
32,-1144,16968
-60,-1404,17176
-40,-1212,17092
-88,-1376,16948
-48,-1496,17112
72,-1388,17020
136,-1332,16904
96,-1404,17008
264,-1240,16932
304,-1444,16928
260,-1372,17028
220,-1380,16952
0,-1304,17004
-108,-1264,17060
-216,-1372,17176
-388,-1384,17104
-552,-1236,17068
-576,-1320,17032
-752,-1232,16664
-876,-1176,17220
-792,-1236,16932
-680,-1064,17044
-400,-1076,17060
-256,-1180,16956
-168,-1336,17088
-128,-1356,17072
160,-1312,16868
120,-1368,17036
156,-1344,17080
184,-1468,17020
96,-1396,17100
-64,-1428,16980
-128,-1424,17016
-148,-1384,16912
-224,-1344,17160
-216,-1172,17096
-288,-1132,17000
-296,-920,17100
-324,-1008,16976
-360,-1192,17052
-284,-1248,17172
-172,-1264,17080
-200,-1324,17052
-160,-1360,16884
-212,-1412,17056
-244,-1464,16924
-224,-1360,16992
-256,-1428,17012
-332,-1320,17004
-184,-1276,17024
-232,-1348,17076
-292,-1284,17136
-164,-1244,17076
-212,-1236,17080
-220,-1116,17144
-236,-1172,17168
-164,-1256,17136
-216,-1176,17104
-204,-1228,17012
-244,-1404,17024
-268,-1440,17128
-296,-1448,17084
-204,-1344,16940
-68,-1484,16968
-84,-1388,17008
-80,-1408,17048
-72,-1324,17136
-128,-1304,17084
-240,-1260,17104
-232,-1216,17144
-272,-1300,17044
-496,-1364,17032
-376,-1308,16952
-480,-1248,17084
-268,-1176,17124
-456,-1368,17076
-488,-1484,17060
-268,-1456,17020
-244,-1536,16956
-228,-1560,17048
-96,-1568,17172
108,-1388,17116
264,-1272,17084
416,-1388,17020
588,-1308,16976
660,-1120,16828
248,-948,17656
320,-1740,17832
1152,-924,16196
588,-788,17168
288,-452,17356
644,-804,16780
564,-788,16820
264,-860,17080
-40,-192,18280
2164,1096,15356
-1912,-2840,22544
380,-1924,17204
696,-1556,17360
-1736,-532,17076
-892,-480,16484
12,-2308,18628
864,-1944,17456
-1056,2280,16772
-1976,2580,15392
-2124,-648,17536
-1736,-1368,17196
-956,-504,16828
-836,12,16720
-1784,-284,16292
412,108,17436
-524,-268,16572
-1228,112,16924
-1460,-264,17556
-844,-632,17444
-1312,316,16828
-1248,364,16632
-2216,-180,17032
-2480,-1732,17468
-1148,232,17172
-1436,172,16596
-1368,16,16676
-1304,-192,17272
-1404,-240,17148
-1376,4,16824
-1408,-84,17168
-1388,24,16924
-1324,56,17004
-1332,32,17036
-1360,-72,16956
-1292,-92,17096
-1304,-20,17024
-1376,-32,16980
-1348,-44,17004
-1304,-52,17060
-1368,12,17008
-1384,-60,17092
-1372,-76,17020
-1424,-68,16940
-1384,-132,17060
-1392,-36,17076
-1368,-28,17052
-1368,-20,17072
-1300,-36,16908
-1352,-20,17056
-1384,-28,16980
-1412,44,17004
-1412,-24,17064
-1396,-8,16968
-1424,-52,17044
-1360,-20,17012
-1408,12,17016
-1368,-44,16908
-1400,44,16956
-1424,-44,17072
-1436,24,17228
-1452,-8,17020
-1316,36,17156
-1380,-28,16972
-1336,8,16956
-1396,8,16972
-1384,-12,17032
-1400,-44,16956
-1400,-44,17052
-1348,-64,17068
-1340,8,17008
-1304,-32,17024
-1404,84,17012
-1380,-36,16916
-1428,8,17020
-1416,-8,17076
-1348,4,16996
-1404,60,16936
-1360,56,16976
-1372,20,16972
-1444,24,17044
-1452,76,16996
-1364,12,17060
-1372,-16,16992
-1460,60,16988
-1432,20,16912
-1432,40,17008
-1424,-72,16964
-1664,-176,17200
-1428,32,16976
-1364,36,17048
-1300,160,16772
-1312,60,17012
-1328,100,16980
-1424,24,17056
-1504,68,17092
-1484,-16,17080
-1408,68,17060
-1368,80,17064
-1424,160,16944
-1396,40,16964
-1472,20,17092
-1460,-16,16984
-1468,0,17076
-1440,44,16984
-1408,8,17020
-1472,32,17008
-1364,56,16932
-1440,16,17068
-1456,12,17064
-1436,32,17064
-1464,20,16984
-1400,60,16932
-1364,20,17092
-1476,-16,17160
-1164,324,16728
-1432,92,16688
-1308,144,16952
-1664,-244,17236
-1536,84,16928
-1512,-172,17256
-1420,144,16916
-1408,52,16932
-1352,136,17028
-1420,12,17052
-1480,-104,17072
-1440,64,17008
-1436,-56,17020
-1400,4,17080
-1376,76,16912
-1400,112,16976
-1400,-36,16984
-1496,8,17088
-1472,56,17012
-1444,28,17076
-1436,64,16908
-1452,88,16976
-1432,-8,16900
-1516,72,17004
-1508,56,17064
-1476,28,17168
-1484,32,17088
-1472,76,17008
-1460,92,17032
-1436,80,17040
-1440,52,17032
-1444,68,17080
-1408,64,17016
-1424,12,17032
-1388,24,17020
-1452,8,16952
-1440,88,16984
-1476,-4,17004
-1428,12,17040
-1452,84,17060
-1484,20,16912
-1420,12,17016
-1424,104,17028
-1460,84,17128
-1472,64,16936
-1480,68,17140
-1460,60,17036
-1412,24,16992
-1440,84,17036
-1460,52,17040
-1500,28,16992
-1440,44,16952
-1456,56,17008
-1480,-24,16948
-1476,52,17032
-1476,84,17008
-1484,52,17032
-1452,20,16932
-1464,-8,17016
-1456,80,16996
-1440,96,16968
-1448,52,17004
-1544,8,16972
-1412,52,17032
-1428,28,16968
-1508,112,16972
-1432,4,16980
-1436,96,17000
-1464,-12,17000
-1480,112,17056
-1420,88,17076
-1380,40,17020
-1428,104,17024
-1416,88,17064
-1464,52,17020
-1468,60,16956
-1420,92,17032
-1516,72,17000
-1448,48,17012
-1528,16,17028
-1412,60,16984
-1468,4,17008
-1436,44,16864
-1472,72,17076
-1440,72,17008
-1516,36,17032
-1436,60,16956
-1448,48,17072
-1456,44,17064
-1464,56,16980
-1552,68,16936
-1448,64,17044
-1452,60,16964
-1456,60,16880
-1416,72,16964
-1444,60,17088
-1480,36,16980
-1464,72,16980
-1476,68,16960
-1440,16,17004
-1488,56,17020
-1496,40,16932
-1544,48,17004
-1472,88,16924
-1500,92,16964
-1452,96,16980
-1376,32,16956
-1444,44,17040
-1424,72,17048
-1508,40,16964
-1472,24,17108
-1416,108,16952
-1456,104,17044
-1488,36,17040
-1508,24,16956
-1500,24,16912
-1460,60,17064
-1508,44,17024
-1448,68,16968
-1492,48,16992
-1412,72,17068
-1424,36,17004
-1468,28,17128
-1500,52,16976
-1460,32,16976
-1468,120,17032
-1464,72,17056
-1528,36,17008
-1448,60,16964
-1448,92,16880
-1440,140,17084
-1460,120,17112
-1404,88,16968
-1432,116,17044
-1500,20,16888
-1444,28,16908
-1436,76,17064
-1436,-36,16972
-1492,120,16992
-1480,128,16928
-1540,92,16900
-1456,-4,16992
-1468,32,16996
-1500,64,17012
-1476,44,17060
-1460,68,16960
-1440,28,16992
-1440,52,16868
-1484,64,16944
-1492,76,16968
-1520,124,16928
-1460,28,16996
-1480,100,17004
-1484,92,17000
-1504,88,16972
-1504,52,17016
-1448,72,17052
-1424,56,17040
-1508,16,17068
-1516,76,17056
-1448,16,16968
-1444,96,16964
-1472,80,16996
-1456,24,16972
-1480,92,16968
-1476,48,17024
-1488,20,17000
-1448,144,17052
-1452,84,16976
-1448,32,17064
-1516,80,16996
-1444,56,17032
-1512,24,17100
-1452,72,17052
-1476,96,17068
-1492,92,16972
-1476,64,17044
-1440,44,16976
-1532,120,17024
-1552,52,17048
-1484,132,16956
-1468,124,16996
-1476,48,17076
-1472,88,17024
-1484,92,17072
-1488,156,17012
-1444,76,16980
-1452,48,17024
-1504,84,16956
-1476,20,16960
-1592,8,17004
-1520,100,16948
-1464,92,16864
-1488,76,16952
-1456,84,17076
-1452,140,17012
-1532,76,17020
-1468,96,17016
-1464,84,17072
-1456,32,17040
-1448,68,16880
-1444,88,17048
-1440,60,17020
-1436,84,17060
-1480,108,17016
-1492,68,17008
-1472,48,17060
-1468,48,16884
-1456,32,17024
-1524,72,16984
-1464,28,16996
-1440,92,16876
-1476,72,17020
-1504,52,16988
-1520,36,16984
-1520,128,16888
-1464,112,17032
-1564,92,16976
-1408,44,16992
-1452,96,16976
-1480,88,16964
-1492,76,17012
-1476,96,16960
-1508,56,17064
-1520,52,17004
-1492,24,17120
-1508,44,16996
-1568,44,16996
-1472,72,16920
-1532,76,16952
-1488,108,17160
-1508,92,16964
-1504,120,17060
-1512,80,17020
-1444,140,17056
-1472,132,16976
-1476,-4,16964
-1468,116,17080
-1480,116,17040
-1504,52,17068
-1512,100,16976
-1484,36,16960
-1508,40,17012
-1548,108,17028
-1432,52,17056
-1432,60,17004
-1500,76,17004
-1504,88,17028
-1524,60,17008
-1536,40,17036
-1472,116,17060
-1504,52,17116
-1468,88,17076
-1460,104,16928
-1504,64,16916
-1504,60,16980
-1472,36,17080
-1472,108,16988
-1524,84,16976
-1460,112,16940
-1464,68,17028
-1484,56,17040
-1448,104,17020
-1484,108,17008
-1420,-12,17036
-1528,148,16984
-1420,96,17000
-1504,60,16956
-1452,68,17000
-1400,68,17000
-1504,160,17044
-1560,140,17000
-1476,36,16980
-1508,80,16992
-1480,28,17048
-1504,112,17092
-1464,16,16972
-1532,100,17124
-1480,32,17048
-1440,96,17152
-1464,96,16920
-1480,60,17092
-1416,132,16968
-1492,108,17000
-1512,80,17072
-1404,84,17052
-1508,144,17032
-1468,52,17088
-1472,108,17076
-1484,76,16996
-1480,116,16912
-1488,60,16928
-1464,68,16976
-1452,140,16928
-1516,56,16980
-1480,108,17008
-1548,80,17004
-1488,56,17092
-1440,148,17052
-1460,48,17068
-1488,124,17064
-1528,100,16984
-1536,76,17012
-1472,20,17092
-1444,60,17040
-1524,36,17104
-1444,108,16900
-1456,56,16992
-1472,108,16936
-1440,68,16952
-1496,116,16960
-1504,128,17012
-1496,48,16980
-1448,32,17096
-1480,0,17020
-1436,132,16944
-1464,100,16976
-1452,44,17052
-1460,44,17104
-1432,108,16996
-1512,56,16956
-1496,76,17052
-1480,72,16980
-1488,152,16932
-1496,32,17052
-1500,132,17148
-1504,96,16948
-1508,92,17040
-1500,92,17024
-1484,68,17000
-1488,100,17000
-1452,132,16980
-1452,60,16896
-1508,140,16904
-1456,152,16948
-1472,100,16984
-1460,12,16916
-1472,120,17092
-1416,108,17004
-1476,68,16968
-1468,108,17004
-1572,88,17016
-1480,80,16996
-1520,84,17040
-1428,88,17076
-1496,76,17064
-1516,52,17016
-1436,72,17028
-1588,84,16968
-1460,104,17044
-1452,132,17016
-1540,72,17076
-1508,128,16936
-1460,132,16928
-1448,76,16948
-1496,84,16996
-1472,108,17168
-1560,120,16916
-1452,92,16960
-1548,112,16984
-1536,96,16992
-1512,128,16964
-1480,80,16960
-1544,100,17064
-1444,88,16920
-1472,44,17092
-1572,100,17016
-1468,188,17096
-1468,72,16984
-1488,112,17040
-1540,100,16944
-1540,128,17040
-1400,44,16844
-1508,120,16912
-1440,176,16988
-1516,68,16900
-1528,132,17028
-1444,100,17044
-1480,16,17004
-1464,84,16940
-1516,148,17032
-1432,124,16992
-1472,20,16944
-1492,56,16996
-1524,116,16944
-1548,92,16952
-1480,72,17056
-1572,60,16984
-1500,128,16948
-1532,144,17004
-1552,72,17000
-1512,96,16852
-1464,68,17152
-1484,76,16980
-1448,44,17024
-1476,20,16984
-1524,104,17060
-1512,60,17028
-1496,80,17040
-1572,76,17120
-1512,92,16964
-1552,84,16992
-1536,92,16960
-1496,108,17160
-1496,140,16904
-1464,52,16968
-1508,56,16932
-1424,60,17100
-1552,108,16968
-1468,124,16968
-1452,60,17068
-1460,148,17112
-1520,104,16956
-1504,108,17020
-1532,72,16896
-1516,52,17024
-1484,40,17008
-1504,-4,17104